key_next_2.keys,key_next_2.rt,participant,List,date,expName,psychopyVersion,OS,frameRate,key_next.keys,key_next.rt,mic_orig.clip,pass_next.keys,trials.thisRepN,trials.thisTrialN,trials.thisN,trials.thisIndex,trials.ran,text,original_audio,syllables,number_of_words,number_of_syllables,duration,compression,filename,advance.keys,advance.rt,mic.clip,key_resp_3.keys,task_loop_block1.thisRepN,task_loop_block1.thisTrialN,task_loop_block1.thisN,task_loop_block1.thisIndex,task_loop_block1.ran,start.keys,start.rt,blocks_loop1.thisRepN,blocks_loop1.thisTrialN,blocks_loop1.thisN,blocks_loop1.thisIndex,blocks_loop1.ran,condsFile,next_scr_2.keys,next_scr_2.rt
right,3.768,953944,v1,2026-04-09_22h05.47.431,Intelligibility11,2022.2.4,Win32,60.24096386,,,,,,,,,,,,,,,,,,,,,,,,,,,,,,,,,,,,
,,953944,v1,2026-04-09_22h05.47.431,Intelligibility11,2022.2.4,Win32,60.24096386,right,0.7427,,,,,,,,,,,,,,,,,,,,,,,,,,,,,,,,,,
,,953944,v1,2026-04-09_22h05.47.431,Intelligibility11,2022.2.4,Win32,60.24096386,,,recording_mic_orig_trials_0,,0,0,0,2,1,Les musiciens réparent les cordes de leur guitare,guitare_coh_C2-C2_normal.wav,Les /mu/si/ci/ens /ré/pa/rent /les /cor/des /de /leur /gui/tare,8,15,1626,x1,guitare_coh_C2-C2_normal.wav,,,,,,,,,,,,,,,,,,,
,,953944,v1,2026-04-09_22h05.47.431,Intelligibility11,2022.2.4,Win32,60.24096386,,,recording_mic_orig_trials_1,,0,1,1,1,1,Sa marraine cherche un plat dans le buffet,buffet_coh_C1-C1_normal.wav,Sa /mar/rai/ne /cher/che un /plat /dans /le /buf/fet,8,11,1452,x1,buffet_coh_C1-C1_normal.wav,,,,,,,,,,,,,,,,,,,
,,953944,v1,2026-04-09_22h05.47.431,Intelligibility11,2022.2.4,Win32,60.24096386,,,recording_mic_orig_trials_2,,0,2,2,0,1,Leur train arrive à la gare avec du retard,retard_coh_A2-A2_normal.wav,Leur /train /ar/ri/ve/ à /la /ga/re a/vec /du /re/tard,9,13,1683,x1,retard_coh_A2-A2_normal.wav,,,,,,,,,,,,,,,,,,,
,,953944,v1,2026-04-09_22h05.47.431,Intelligibility11,2022.2.4,Win32,60.24096386,,,,,,,,,,,,,,,,,,right,4.4387,,,,,,,,,,,,,,,,,
,,953944,v1,2026-04-09_22h05.47.431,Intelligibility11,2022.2.4,Win32,60.24096386,,,,,,,,,,L'écolier écrit la leçon sur son cahier,cahier_coh_A1-A1_normal.wav,L'é/co/lier /é/crit /la /le/çon /sur /son /ca/hier,7,12,534,x3.0,cahier_coh_A1-A1_normal_x3.0compressed.wav,,,recording_mic_task_loop_block1_0,,0,0,0,1,1,,,,,,,,,,
,,953944,v1,2026-04-09_22h05.47.431,Intelligibility11,2022.2.4,Win32,60.24096386,,,,,,,,,,La fillette coiffe les cheveux de sa poupée,poupee_coh_B1-B1_normal.wav,La /fil/let/te /coif/fe /les /che/veux /de /sa /pou/pée,8,13,474,x3.0,poupee_coh_B1-B1_normal_x3.0compressed.wav,,,recording_mic_task_loop_block1_1,,0,1,1,3,1,,,,,,,,,,
,,953944,v1,2026-04-09_22h05.47.431,Intelligibility11,2022.2.4,Win32,60.24096386,,,,,,,,,,L'athlète pratique le judo sur un tapis,tapis_coh_A3-A3_normal.wav,L'a/thlè/te /pra/ti/que /le /ju/do /sur /un /ta/pis,7,13,532,x3.0,tapis_coh_A3-A3_normal_x3.0compressed.wav,,,recording_mic_task_loop_block1_2,,0,2,2,0,1,,,,,,,,,,
,,953944,v1,2026-04-09_22h05.47.431,Intelligibility11,2022.2.4,Win32,60.24096386,,,,,,,,,,La fleuriste mets des roses dans le bouquet,bouquet_coh_A2-A2_normal.wav,La /fleu/ris/te /mets /des /ro/ses /dans /le /bou/quet,8,12,483,x3.0,bouquet_coh_A2-A2_normal_x3.0compressed.wav,,,recording_mic_task_loop_block1_3,,0,3,3,4,1,,,,,,,,,,
,,953944,v1,2026-04-09_22h05.47.431,Intelligibility11,2022.2.4,Win32,60.24096386,,,,,,,,,,L'élève remet son classeur dans son cartable,cartable_coh_A1-A1_normal.wav,L'é/lè/ve /re/met /son /clas/seur /dans /son /car/ta/ble,7,13,568,x3.0,cartable_coh_A1-A1_normal_x3.0compressed.wav,,,recording_mic_task_loop_block1_4,,0,4,4,2,1,,,,,,,,,,
,,953944,v1,2026-04-09_22h05.47.431,Intelligibility11,2022.2.4,Win32,60.24096386,,,,,,,,,,,,,,,,,,,,,,,,,,,right,1.8287,0,0,0,0,1,x3_L1.xlsx,,
,,953944,v1,2026-04-09_22h05.47.431,Intelligibility11,2022.2.4,Win32,60.24096386,,,,,,,,,,La maîtresse corrige les fautes de la dictée,dictee_coh_A1-A1_normal.wav,La /maî/tres/se /cor/ri/ge /les /fau/tes /de /la /dic/tée,8,14,644,x2.5,dictee_coh_A1-A1_normal_x2.5compressed.wav,,,recording_mic_task_loop_block1_0,,0,0,0,1,1,,,,,,,,,,
,,953944,v1,2026-04-09_22h05.47.431,Intelligibility11,2022.2.4,Win32,60.24096386,,,,,,,,,,La maman achète des couches pour son bébé,bebe_coh_C1-C1_normal.wav,La /ma/man /a/chè/te /des /cou/ches /pour /son /bé/bé,8,13,607,x2.5,bebe_coh_C1-C1_normal_x2.5compressed.wav,,,recording_mic_task_loop_block1_1,,0,1,1,3,1,,,,,,,,,,
,,953944,v1,2026-04-09_22h05.47.431,Intelligibility11,2022.2.4,Win32,60.24096386,,,,,,,,,,La maîtresse évalue le niveau de lecture,lecture_coh_D1-D1_normal.wav,La /maî/tres/se/ é/va/lue /le /ni/veau /de /lec/tu/re,7,14,614,x2.5,lecture_coh_D1-D1_normal_x2.5compressed.wav,,,recording_mic_task_loop_block1_2,,0,2,2,2,1,,,,,,,,,,
,,953944,v1,2026-04-09_22h05.47.431,Intelligibility11,2022.2.4,Win32,60.24096386,,,,,,,,,,La mémé lance des miettes aux pigeons,pigeons_coh_A1-A1_normal.wav,La /mé/mé /lan/ce /des /miet/tes /aux /pi/ge/ons,7,12,518,x2.5,pigeons_coh_A1-A1_normal_x2.5compressed.wav,,,recording_mic_task_loop_block1_3,,0,3,3,4,1,,,,,,,,,,
,,953944,v1,2026-04-09_22h05.47.431,Intelligibility11,2022.2.4,Win32,60.24096386,,,,,,,,,,La grand-mère empile les bols sur les assiettes,assiettes_coh_A2-A2_normal.wav,La /grand /mè/re em/pi/le /les /bols /sur /les /as/siet/tes,8,13,734,x2.5,assiettes_coh_A2-A2_normal_x2.5compressed.wav,,,recording_mic_task_loop_block1_4,,0,4,4,0,1,,,,,,,,,,
,,953944,v1,2026-04-09_22h05.47.431,Intelligibility11,2022.2.4,Win32,60.24096386,,,,,,,,,,,,,,,,,,,,,,,,,,,right,2.7633,0,1,1,1,1,x2.5_L2.xlsx,,
,,953944,v1,2026-04-09_22h05.47.431,Intelligibility11,2022.2.4,Win32,60.24096386,,,,,,,,,,Le roi organise une fête dans son château,chateau_coh_C3-C3_normal.wav,Le /roi /or/ga/ni/se u/ne /fê/te /dans /son /châ/teau,8,13,869,x2.0,chateau_coh_C3-C3_normal_x2compressed.wav,,,recording_mic_task_loop_block1_0,,0,0,0,4,1,,,,,,,,,,
,,953944,v1,2026-04-09_22h05.47.431,Intelligibility11,2022.2.4,Win32,60.24096386,,,,,,,,,,Le papy utilise des mouchoirs en tissu,tissu_coh_D3-D3_normal.wav,Le /pa/py /u/ti/li/se /des /mou/choirs /en /tis/su,7,13,779,x2.0,tissu_coh_D3-D3_normal_x2compressed.wav,,,recording_mic_task_loop_block1_1,,0,1,1,2,1,,,,,,,,,,
,,953944,v1,2026-04-09_22h05.47.431,Intelligibility11,2022.2.4,Win32,60.24096386,,,,,,,,,,La poule donne des graines à ses poussins,poussins_coh_A2-A2_normal.wav,La /pou/le /don/ne /des /grai/nes /à /ses /pous/sins,8,12,763,x2.0,poussins_coh_A2-A2_normal_x2compressed.wav,,,recording_mic_task_loop_block1_2,,0,2,2,0,1,,,,,,,,,,
,,953944,v1,2026-04-09_22h05.47.431,Intelligibility11,2022.2.4,Win32,60.24096386,,,,,,,,,,Le gamin attache ses baskets avec un lacet,lacet_coh_A1-A1_normal.wav,Le /ga/min /at/ta/che /ses /bas/kets /a/vec /un /la/cet,8,14,819,x2.0,lacet_coh_A1-A1_normal_x2compressed.wav,,,recording_mic_task_loop_block1_3,,0,3,3,1,1,,,,,,,,,,
,,953944,v1,2026-04-09_22h05.47.431,Intelligibility11,2022.2.4,Win32,60.24096386,,,,,,,,,,Le Père Noël reçoit l'aide d'un lutin,lutin_coh_B1-B1_normal.wav,Le /Pè/re /No/ël /re/çoit /l'ai/de /d'un /lu/tin,7,12,696,x2.0,lutin_coh_B1-B1_normal_x2compressed.wav,,,recording_mic_task_loop_block1_4,,0,4,4,3,1,,,,,,,,,,
,,953944,v1,2026-04-09_22h05.47.431,Intelligibility11,2022.2.4,Win32,60.24096386,,,,,,,,,,,,,,,,,,,,,,,,,,,right,1.3456,0,2,2,2,1,x2_L3.xlsx,,
,,953944,v1,2026-04-09_22h05.47.431,Intelligibility11,2022.2.4,Win32,60.24096386,,,,,,,,,,Les baigneurs posent leurs serviettes sur un rocher,rocher_coh_B3-B3_normal.wav,Les /bai/gneurs /po/sent /leurs /ser/vi/et/tes /sur /un /ro/cher,8,14,997,x1.75,rocher_coh_B3-B3_normal_x1.75compressed.wav,,,recording_mic_task_loop_block1_0,,0,0,0,0,1,,,,,,,,,,
,,953944,v1,2026-04-09_22h05.47.431,Intelligibility11,2022.2.4,Win32,60.24096386,,,,,,,,,,Les enfants mangent des biscuits pour leur goûter,gouter_coh_D1-D1_normal.wav,Les /en/fants /man/gent /des /bis/cuits /pour /leur /goû/ter,8,12,922,x1.75,gouter_coh_D1-D1_normal_x1.75compressed.wav,,,recording_mic_task_loop_block1_1,,0,1,1,1,1,,,,,,,,,,
,,953944,v1,2026-04-09_22h05.47.431,Intelligibility11,2022.2.4,Win32,60.24096386,,,,,,,,,,Les gamins jouent au rugby avec un ballon,ballon_coh_A3-A3_normal.wav,Les /ga/mins /jouent /au /rug/by /a/vec /un /bal/lon,8,12,948,x1.75,ballon_coh_A3-A3_normal_x1.75compressed.wav,,,recording_mic_task_loop_block1_2,,0,2,2,2,1,,,,,,,,,,
,,953944,v1,2026-04-09_22h05.47.431,Intelligibility11,2022.2.4,Win32,60.24096386,,,,,,,,,,Les parents rencontrent le directeur de l'école,ecole_coh_D1-D1_normal.wav,Les /pa/rents /ren/con/trent /le /di/rec/teur /de /l'é/co/le,7,14,907,x1.75,ecole_coh_D1-D1_normal_x1.75compressed.wav,,,recording_mic_task_loop_block1_3,,0,3,3,3,1,,,,,,,,,,
,,953944,v1,2026-04-09_22h05.47.431,Intelligibility11,2022.2.4,Win32,60.24096386,,,,,,,,,,Les singes sont des mangeurs de bananes,bananes_coh_B1-B1_normal.wav,Les /sin/ges /sont /des /man/geurs /de /ba/na/nes,7,11,698,x1.75,bananes_coh_B1-B1_normal_x1.75compressed.wav,,,recording_mic_task_loop_block1_4,,0,4,4,4,1,,,,,,,,,,
,,953944,v1,2026-04-09_22h05.47.431,Intelligibility11,2022.2.4,Win32,60.24096386,,,,,,,,,,,,,,,,,,,,,,,,,,,right,1.6993,0,3,3,3,1,x1.75_L4.xlsx,,
,,953944,v1,2026-04-09_22h05.47.431,Intelligibility11,2022.2.4,Win32,60.24096386,,,,,,,,,,Ma sœur écoute les conseils de son ami,ami_coh_B1-B1_normal.wav,Ma /sœur /é/cou/te /les /con/seils /de /son /a/mi,8,12,1070,x1.5,ami_coh_B1-B1_normal_x1.5compressed.wav,,,recording_mic_task_loop_block1_0,,0,0,0,0,1,,,,,,,,,,
,,953944,v1,2026-04-09_22h05.47.431,Intelligibility11,2022.2.4,Win32,60.24096386,,,,,,,,,,Ma sœur prépare une tarte avec des myrtilles,myrtilles_coh_A2-A2_normal.wav,Ma /sœur /pré/pa/re u/ne /tar/te a/vec /des /myr/til/les,8,13,1137,x1.5,myrtilles_coh_A2-A2_normal_x1.5compressed.wav,,,recording_mic_task_loop_block1_1,,0,1,1,1,1,,,,,,,,,,
,,953944,v1,2026-04-09_22h05.47.431,Intelligibility11,2022.2.4,Win32,60.24096386,,,,,,,,,,Mon oncle achète une villa à la campagne,campagne_coh_C3-C3_normal.wav,Mon /on/cle a/chè/te/ u/ne /vil/la /à /la /cam/pa/gne,8,14,991,x1.5,campagne_coh_C3-C3_normal_x1.5compressed.wav,,,recording_mic_task_loop_block1_2,,0,2,2,2,1,,,,,,,,,,
,,953944,v1,2026-04-09_22h05.47.431,Intelligibility11,2022.2.4,Win32,60.24096386,,,,,,,,,,Sa mère cuisine un gratin de poireaux,poireaux_coh_B1-B1_normal.wav,Sa /mè/re /cui/si/ne/ un /gra/tin /de /poi/reaux,7,12,1065,x1.5,poireaux_coh_B1-B1_normal_x1.5compressed.wav,,,recording_mic_task_loop_block1_3,,0,3,3,3,1,,,,,,,,,,
,,953944,v1,2026-04-09_22h05.47.431,Intelligibility11,2022.2.4,Win32,60.24096386,,,,,,,,,,Sa tante porte un bracelet au poignet,poignet_coh_A3-A3_normal.wav,Sa /tan/te /por/te/ un /bra/ce/let /au /poi/gnet,7,12,1035,x1.5,poignet_coh_A3-A3_normal_x1.5compressed.wav,,,recording_mic_task_loop_block1_4,,0,4,4,4,1,,,,,,,,,,
,,953944,v1,2026-04-09_22h05.47.431,Intelligibility11,2022.2.4,Win32,60.24096386,,,,,,,,,,,,,,,,,,,,,,,,,,,right,1.8936,0,4,4,4,1,x1.5_L5.xlsx,,
,,953944,v1,2026-04-09_22h05.47.431,Intelligibility11,2022.2.4,Win32,60.24096386,,,,,,,,,,Un magicien sort une colombe de son chapeau,chapeau_coh_A1-A1_normal.wav,Un /ma/gi/cien /sort /une /co/lom/be /de /son /cha/peau,8,13,1305,x1.25,chapeau_coh_A1-A1_normal_x1.25compressed.wav,,,recording_mic_task_loop_block1_0,,0,0,0,4,1,,,,,,,,,,
,,953944,v1,2026-04-09_22h05.47.431,Intelligibility11,2022.2.4,Win32,60.24096386,,,,,,,,,,Son cousin achète un casque pour sa moto,moto_coh_A2-A2_normal.wav,Son /cou/sin /a/chè/te/ un /cas/que /pour /sa /mo/to,8,13,1340,x1.25,moto_coh_A2-A2_normal_x1.25compressed.wav,,,recording_mic_task_loop_block1_1,,0,1,1,0,1,,,,,,,,,,
,,953944,v1,2026-04-09_22h05.47.431,Intelligibility11,2022.2.4,Win32,60.24096386,,,,,,,,,,Son grand-père fait la sieste dans son fauteuil,fauteuil_coh_B1-B1_normal.wav,Son /grand /pè/re /fait /la /sies/te /dans /son /fau/teuil,8,12,1438,x1.25,fauteuil_coh_B1-B1_normal_x1.25compressed.wav,,,recording_mic_task_loop_block1_2,,0,2,2,2,1,,,,,,,,,,
,,953944,v1,2026-04-09_22h05.47.431,Intelligibility11,2022.2.4,Win32,60.24096386,,,,,,,,,,Un chevalier combat les flammes du dragon,dragon_coh_A1-A1_normal.wav,Un /che/va/lier /com/bat /les /flam/mes /du /dra/gon,7,12,1316,x1.25,dragon_coh_A1-A1_normal_x1.25compressed.wav,,,recording_mic_task_loop_block1_3,,0,3,3,3,1,,,,,,,,,,
,,953944,v1,2026-04-09_22h05.47.431,Intelligibility11,2022.2.4,Win32,60.24096386,,,,,,,,,,Son fils colorie les animaux sur le dessin,dessin_coh_B3-B3_normal.wav,Son /fils /co/lo/rie /les /a/ni/maux /sur /le /des/sin,8,13,1312,x1.25,dessin_coh_B3-B3_normal_x1.25compressed.wav,,,recording_mic_task_loop_block1_4,,0,4,4,1,1,,,,,,,,,,
,,953944,v1,2026-04-09_22h05.47.431,Intelligibility11,2022.2.4,Win32,60.24096386,,,,,,,,,,,,,,,,,,,,,,,,,,,,,0,5,5,5,1,x1.25_L6.xlsx,,
,,953944,v1,2026-04-09_22h05.47.431,Intelligibility11,2022.2.4,Win32,60.24096386,,,,,,,,,,,,,,,,,,,,,,,,,,,,,,,,,,,space,1.9914
